[2024-04-18 18:38:19.866047] [0x00007f006e7d1f80] [info] [0x00010092] [1] Initial timestamp, Current time, User-defined position x, User-defined position y, User-defined position z, User-defined velocity x, User-defined velocity y, User-defined velocity z, User-defined acceleration x, User-defined acceleration y, User-defined acceleration z, User-defined yaw, User-defined yaw_dot, User-defined yaw_dot_dot
[2024-04-18 18:38:19.878169] [0x00007f006e7d1f80] [info] [0x00010092] [2] 1713479899865911, 0.011871, -5.54091e-10, -3.81344e-10, 4.1494e-10, -1.86474e-07, -1.28317e-07, 1.39628e-07, -4.70282e-05, -3.23524e-05, 3.52068e-05, 0, 0, 0
[2024-04-18 18:38:19.888087] [0x00007f006e7d1f80] [info] [0x00010092] [3] 1713479899865911, 0.021865, -6.35077e-09, -4.36843e-09, 4.754e-09, -1.15917e-06, -7.97107e-07, 8.67535e-07, -0.000158442, -0.000108898, 0.000118536, 0, 0, 0
[2024-04-18 18:38:19.898150] [0x00007f006e7d1f80] [info] [0x00010092] [4] 1713479899865911, 0.031876, -2.85676e-08, -1.96397e-08, 2.13764e-08, -3.57295e-06, -2.45525e-06, 2.6727e-06, -0.000334404, -0.000229626, 0.000250014, 0, 0, 0
[2024-04-18 18:38:19.908294] [0x00007f006e7d1f80] [info] [0x00010092] [5] 1713479899865911, 0.042013, -8.58457e-08, -5.89843e-08, 6.42104e-08, -8.13745e-06, -5.58797e-06, 6.08405e-06, -0.000576816, -0.000395711, 0.000430959, 0, 0, 0
[2024-04-18 18:38:19.918195] [0x00007f006e7d1f80] [info] [0x00010092] [6] 1713479899865911, 0.051892, -1.98973e-07, -1.36639e-07, 1.48768e-07, -1.52544e-05, -1.0468e-05, 1.13995e-05, -0.00087391, -0.000598972, 0.000652495, 0, 0, 0
[2024-04-18 18:38:19.928186] [0x00007f006e7d1f80] [info] [0x00010092] [7] 1713479899865911, 0.061894, -4.01026e-07, -2.75241e-07, 2.99719e-07, -2.57492e-05, -1.76575e-05, 1.92325e-05, -0.00123456, -0.000845365, 0.000921148, 0, 0, 0
[2024-04-18 18:38:19.938169] [0x00007f006e7d1f80] [info] [0x00010092] [8] 1713479899865911, 0.071868, -7.25952e-07, -4.97974e-07, 5.42346e-07, -4.01007e-05, -2.74798e-05, 2.99368e-05, -0.00165287, -0.00113073, 0.00123242, 0, 0, 0
[2024-04-18 18:38:19.948133] [0x00007f006e7d1f80] [info] [0x00010092] [9] 1713479899865911, 0.081869, -1.21737e-06, -8.34603e-07, 9.09113e-07, -5.89685e-05, -4.03808e-05, 4.40001e-05, -0.0021298, -0.00145561, 0.00158694, 0, 0, 0
[2024-04-18 18:38:19.958137] [0x00007f006e7d1f80] [info] [0x00010092] [10] 1713479899865911, 0.091859, -1.92137e-06, -1.31651e-06, 1.43427e-06, -8.28593e-05, -5.67008e-05, 6.17951e-05, -0.00266239, -0.00181786, 0.00198241, 0, 0, 0
[2024-04-18 18:38:19.968310] [0x00007f006e7d1f80] [info] [0x00010092] [11] 1713479899865911, 0.101887, -2.89581e-06, -1.98307e-06, 2.16079e-06, -0.000112469, -7.69081e-05, 8.38347e-05, -0.00325217, -0.0022184, 0.00241988, 0, 0, 0
[2024-04-18 18:38:19.978031] [0x00007f006e7d1f80] [info] [0x00010092] [12] 1713479899865911, 0.111836, -4.18603e-06, -2.86502e-06, 3.12227e-06, -0.000147958, -0.000101104, 0.000110232, -0.00389065, -0.00265136, 0.00289294, 0, 0, 0
[2024-04-18 18:38:19.987859] [0x00007f006e7d1f80] [info] [0x00010092] [13] 1713479899865911, 0.121807, -5.86598e-06, -4.01255e-06, 4.37353e-06, -0.000190158, -0.000129848, 0.000141599, -0.00458258, -0.00311984, 0.00340505, 0, 0, 0
[2024-04-18 18:38:19.997878] [0x00007f006e7d1f80] [info] [0x00010092] [14] 1713479899865911, 0.131814, -8.01057e-06, -5.47642e-06, 5.97005e-06, -0.000239704, -0.000163562, 0.0001784, -0.00532815, -0.00362384, 0.00395623, 0, 0, 0
[2024-04-18 18:38:20.007847] [0x00007f006e7d1f80] [info] [0x00010092] [15] 1713479899865911, 0.141817, -1.0688e-05, -7.30264e-06, 7.96216e-06, -0.000296938, -0.000202468, 0.000220882, -0.00612336, -0.00416054, 0.00454343, 0, 0, 0
[2024-04-18 18:38:20.017849] [0x00007f006e7d1f80] [info] [0x00010092] [16] 1713479899865911, 0.151804, -1.39727e-05, -9.54149e-06, 1.04049e-05, -0.000362259, -0.000246829, 0.000269331, -0.00696586, -0.00472825, 0.00516485, 0, 0, 0
[2024-04-18 18:38:20.027835] [0x00007f006e7d1f80] [info] [0x00010092] [17] 1713479899865911, 0.161808, -1.79599e-05, -1.22572e-05, 1.33685e-05, -0.000436365, -0.000297104, 0.000324257, -0.00785723, -0.00532791, 0.00582154, 0, 0, 0
[2024-04-18 18:38:20.037820] [0x00007f006e7d1f80] [info] [0x00010092] [18] 1713479899865911, 0.171803, -2.27293e-05, -1.55033e-05, 1.69116e-05, -0.000519542, -0.000353476, 0.000385861, -0.00879398, -0.00595706, 0.00651085, 0, 0, 0
[2024-04-18 18:38:20.047811] [0x00007f006e7d1f80] [info] [0x00010092] [19] 1713479899865911, 0.181803, -2.83806e-05, -1.93467e-05, 2.11076e-05, -0.000612355, -0.000416316, 0.000454552, -0.0097762, -0.00661564, 0.00723274, 0, 0, 0
[2024-04-18 18:38:20.057827] [0x00007f006e7d1f80] [info] [0x00010092] [20] 1713479899865911, 0.191807, -3.50127e-05, -2.3854e-05, 2.60294e-05, -0.000715255, -0.000485912, 0.000530652, -0.0108026, -0.00730272, 0.00798624, 0, 0, 0
[2024-04-18 18:38:20.067842] [0x00007f006e7d1f80] [info] [0x00010092] [21] 1713479899865911, 0.201769, -4.26916e-05, -2.90686e-05, 3.17248e-05, -0.000828138, -0.000562183, 0.000614074, -0.0118672, -0.00801406, 0.00876673, -2.5452, -0.0347074, -0.0156716
[2024-04-18 18:38:20.077870] [0x00007f006e7d1f80] [info] [0x00010092] [22] 1713479899865911, 0.211783, -5.1598e-05, -3.51124e-05, 3.83272e-05, -0.000952508, -0.000646127, 0.000705915, -0.0129787, -0.00875552, 0.00958068, -2.54555, -0.0348648, -0.0157693
[2024-04-18 18:38:20.087817] [0x00007f006e7d1f80] [info] [0x00010092] [23] 1713479899865911, 0.221801, -6.18106e-05, -4.20374e-05, 4.58938e-05, -0.00108827, -0.000737662, 0.000806092, -0.0141311, -0.0095229, 0.0104235, -2.5459, -0.0350233, -0.0158679
[2024-04-18 18:38:20.097855] [0x00007f006e7d1f80] [info] [0x00010092] [24] 1713479899865911, 0.231809, -7.34294e-05, -4.991e-05, 5.44975e-05, -0.00123562, -0.000836907, 0.000914739, -0.0153216, -0.0103142, 0.011293, -2.54625, -0.0351826, -0.0159672
[2024-04-18 18:38:20.107805] [0x00007f006e7d1f80] [info] [0x00010092] [25] 1713479899865911, 0.241797, -8.65552e-05, -5.87969e-05, 6.4212e-05, -0.00139474, -0.000943968, 0.00103198, -0.0165476, -0.0111277, 0.0121874, -2.5466, -0.0353426, -0.0160672
[2024-04-18 18:38:20.117798] [0x00007f006e7d1f80] [info] [0x00010092] [26] 1713479899865911, 0.251794, -0.000101346, -6.88036e-05, 7.51529e-05, -0.00156646, -0.00105938, 0.0011584, -0.0178116, -0.0119647, 0.0131082, -2.54696, -0.0355037, -0.0161681
[2024-04-18 18:38:20.127861] [0x00007f006e7d1f80] [info] [0x00010092] [27] 1713479899865911, 0.261811, -0.000117953, -8.003e-05, 8.743e-05, -0.00175137, -0.00118352, 0.00129443, -0.0191139, -0.0128256, 0.0140557, -2.54731, -0.0356662, -0.01627
[2024-04-18 18:38:20.137791] [0x00007f006e7d1f80] [info] [0x00010092] [28] 1713479899865911, 0.27179, -0.000136403, -9.24934e-05, 0.000101063, -0.00194872, -0.00131588, 0.0014395, -0.0204458, -0.0137044, 0.0150234, -2.54767, -0.035829, -0.0163724
[2024-04-18 18:38:20.147776] [0x00007f006e7d1f80] [info] [0x00010092] [29] 1713479899865911, 0.281783, -0.00015692, -0.000106342, 0.000116214, -0.00215984, -0.00145731, 0.00159457, -0.0218131, -0.0146048, 0.0160155, -2.54803, -0.0359931, -0.0164759
[2024-04-18 18:38:20.157803] [0x00007f006e7d1f80] [info] [0x00010092] [30] 1713479899865911, 0.291797, -0.000179666, -0.000121683, 0.000133002, -0.00238527, -0.00160816, 0.00176001, -0.0232157, -0.0155266, 0.0170318, -2.54839, -0.0361587, -0.0165804
[2024-04-18 18:38:20.167821] [0x00007f006e7d1f80] [info] [0x00010092] [31] 1713479899865911, 0.301771, -0.000204635, -0.000138511, 0.000151421, -0.00262392, -0.00176768, 0.00193503, -0.024644, -0.0164635, 0.0180652, -2.54875, -0.0363246, -0.0166854
[2024-04-18 18:38:20.177846] [0x00007f006e7d1f80] [info] [0x00010092] [32] 1713479899865911, 0.311782, -0.000232162, -0.000157048, 0.000171715, -0.00287794, -0.00193728, 0.00212115, -0.0261079, -0.0174218, 0.0191229, -2.54912, -0.0364921, -0.0167917
[2024-04-18 18:38:20.187859] [0x00007f006e7d1f80] [info] [0x00010092] [33] 1713479899865911, 0.321791, -0.0002623, -0.000177327, 0.000193922, -0.0031467, -0.00211652, 0.00231793, -0.0276007, -0.0183971, 0.0202, -2.54948, -0.0366607, -0.0168989
[2024-04-18 18:38:20.197842] [0x00007f006e7d1f80] [info] [0x00010092] [34] 1713479899865911, 0.331776, -0.000295121, -0.000199394, 0.000218091, -0.00342984, -0.00230514, 0.00252507, -0.0291182, -0.0193864, 0.0212932, -2.54985, -0.03683, -0.0170068
[2024-04-18 18:38:20.207799] [0x00007f006e7d1f80] [info] [0x00010092] [35] 1713479899865911, 0.341767, -0.000330867, -0.000223409, 0.0002444, -0.00372846, -0.00250384, 0.00274335, -0.0306636, -0.0203919, 0.0224049, -2.55022, -0.0370005, -0.0171156
[2024-04-18 18:38:20.217833] [0x00007f006e7d1f80] [info] [0x00010092] [36] 1713479899865911, 0.351778, -0.000369756, -0.000249513, 0.000273006, -0.0040433, -0.00271309, 0.00297329, -0.0322383, -0.0214142, 0.023536, -2.55059, -0.0371724, -0.0172256
[2024-04-18 18:38:20.227923] [0x00007f006e7d1f80] [info] [0x00010092] [37] 1713479899865911, 0.361845, -0.00041212, -0.000277929, 0.00030415, -0.00437592, -0.0029339, 0.00321602, -0.0338471, -0.0224564, 0.0246898, -2.55097, -0.0373463, -0.0173372
[2024-04-18 18:38:20.237830] [0x00007f006e7d1f80] [info] [0x00010092] [38] 1713479899865911, 0.371807, -0.000457419, -0.000308288, 0.000337432, -0.00472113, -0.0031628, 0.00346774, -0.0354633, -0.0235011, 0.0258471, -2.55134, -0.0375196, -0.0174486
[2024-04-18 18:38:20.247833] [0x00007f006e7d1f80] [info] [0x00010092] [39] 1713479899865911, 0.381811, -0.000506451, -0.000341122, 0.000373436, -0.00508412, -0.00340321, 0.00373219, -0.0371093, -0.0245627, 0.0270239, -2.55171, -0.0376947, -0.0175615
[2024-04-18 18:38:20.257831] [0x00007f006e7d1f80] [info] [0x00010092] [40] 1713479899865911, 0.391807, -0.000559154, -0.000376385, 0.000412113, -0.00546338, -0.00365408, 0.00400825, -0.038776, -0.0256352, 0.0282136, -2.55209, -0.0378708, -0.0176752
[2024-04-18 18:38:20.267827] [0x00007f006e7d1f80] [info] [0x00010092] [41] 1713479899865911, 0.401807, -0.000615755, -0.000414226, 0.000453626, -0.00585956, -0.00391585, 0.00429639, -0.0404646, -0.0267193, 0.029417, -2.55247, -0.0380481, -0.01779
[2024-04-18 18:38:20.277847] [0x00007f006e7d1f80] [info] [0x00010092] [42] 1713479899865911, 0.411775, -0.000676201, -0.000454605, 0.000497934, -0.00627139, -0.00418762, 0.00459565, -0.0421679, -0.0278103, 0.0306288, -2.55285, -0.0382261, -0.0179054
[2024-04-18 18:38:20.287833] [0x00007f006e7d1f80] [info] [0x00010092] [43] 1713479899865911, 0.421812, -0.0007413, -0.000498055, 0.000545624, -0.00670331, -0.0044723, 0.00490925, -0.0439022, -0.0289185, 0.0318606, -2.55324, -0.0384064, -0.0180227
[2024-04-18 18:38:20.297838] [0x00007f006e7d1f80] [info] [0x00010092] [44] 1713479899865911, 0.431806, -0.000810514, -0.000544214, 0.000596299, -0.00715078, -0.00476686, 0.00523384, -0.0456474, -0.030031, 0.0330981, -2.55362, -0.0385871, -0.0181405
[2024-04-18 18:38:20.307833] [0x00007f006e7d1f80] [info] [0x00010092] [45] 1713479899865911, 0.441772, -0.000884075, -0.00059323, 0.000650123, -0.00761444, -0.00507172, 0.00556988, -0.0474049, -0.0311486, 0.0343421, -2.55401, -0.0387684, -0.018259
[2024-04-18 18:38:20.317876] [0x00007f006e7d1f80] [info] [0x00010092] [46] 1713479899865911, 0.451786, -0.000962733, -0.000645599, 0.000707643, -0.00809807, -0.00538929, 0.00592008, -0.0491873, -0.0322792, 0.0356016, -2.5544, -0.0389519, -0.0183791
[2024-04-18 18:38:20.327807] [0x00007f006e7d1f80] [info] [0x00010092] [47] 1713479899865911, 0.461781, -0.00104616, -0.000701096, 0.000768614, -0.00859865, -0.00571759, 0.00628224, -0.0509818, -0.0334146, 0.0368673, -2.55479, -0.0391362, -0.0185001
[2024-04-18 18:38:20.337843] [0x00007f006e7d1f80] [info] [0x00010092] [48] 1713479899865911, 0.471774, -0.00113466, -0.00075992, 0.000833254, -0.00911714, -0.0060572, 0.00665701, -0.0527905, -0.034556, 0.0381407, -2.55518, -0.0393217, -0.0186222
[2024-04-18 18:38:20.347847] [0x00007f006e7d1f80] [info] [0x00010092] [49] 1713479899865911, 0.481816, -0.00122891, -0.000822508, 0.000902048, -0.00965644, -0.00641, 0.00704648, -0.0546218, -0.0357086, 0.0394277, -2.55557, -0.0395093, -0.0187459
[2024-04-18 18:38:20.357830] [0x00007f006e7d1f80] [info] [0x00010092] [50] 1713479899865911, 0.491804, -0.00132811, -0.000888331, 0.000974417, -0.0102112, -0.0067724, 0.0074467, -0.0564561, -0.03686, 0.0407143, -2.55597, -0.0396971, -0.0188702
[2024-04-18 18:38:20.367814] [0x00007f006e7d1f80] [info] [0x00010092] [51] 1713479899865911, 0.501802, -0.00143306, -0.000957903, 0.00105093, -0.0107848, -0.00714671, 0.00786022, -0.0583041, -0.0380169, 0.0420081, -2.55637, -0.0398864, -0.0189956
[2024-04-18 18:38:20.377957] [0x00007f006e7d1f80] [info] [0x00010092] [52] 1713479899865911, 0.511889, -0.00154484, -0.00103195, 0.00113237, -0.0113824, -0.00753608, 0.00829057, -0.0601798, -0.0391878, 0.0433187, -2.55677, -0.0400787, -0.0191234
[2024-04-18 18:38:20.387802] [0x00007f006e7d1f80] [info] [0x00010092] [53] 1713479899865911, 0.521798, -0.00166061, -0.00110856, 0.00121667, -0.0119879, -0.00793011, 0.00872621, -0.0620324, -0.0403411, 0.0446106, -2.55717, -0.0402688, -0.01925
[2024-04-18 18:38:20.398213] [0x00007f006e7d1f80] [info] [0x00010092] [54] 1713479899865911, 0.531847, -0.00178424, -0.00119031, 0.00130663, -0.0126207, -0.00834138, 0.0091811, -0.0639206, -0.0415131, 0.0459246, -2.55757, -0.0404629, -0.0193796
[2024-04-18 18:38:20.408221] [0x00007f006e7d1f80] [info] [0x00010092] [55] 1713479899865911, 0.541865, -0.00191392, -0.00127598, 0.00140094, -0.0132706, -0.00876312, 0.00964775, -0.0658115, -0.0426833, 0.0472379, -2.55798, -0.0406577, -0.01951
[2024-04-18 18:38:20.418281] [0x00007f006e7d1f80] [info] [0x00010092] [56] 1713479899865911, 0.551874, -0.00205007, -0.00136584, 0.00149989, -0.0139387, -0.0091962, 0.0101271, -0.0677083, -0.0438537, 0.0485525, -2.55839, -0.0408536, -0.0196415
[2024-04-18 18:38:20.428452] [0x00007f006e7d1f80] [info] [0x00010092] [57] 1713479899865911, 0.561892, -0.00219314, -0.00146019, 0.0016038, -0.0146266, -0.00964139, 0.0106201, -0.0696137, -0.0450259, 0.0498703, -2.5588, -0.0410511, -0.0197743
[2024-04-18 18:38:20.438254] [0x00007f006e7d1f80] [info] [0x00010092] [58] 1713479899865911, 0.571869, -0.00234256, -0.00155864, 0.00171226, -0.0153306, -0.0100964, 0.0111242, -0.0715173, -0.0461932, 0.0511839, -2.55921, -0.041249, -0.0199078
[2024-04-18 18:38:20.448198] [0x00007f006e7d1f80] [info] [0x00010092] [59] 1713479899865911, 0.581858, -0.0024993, -0.00166182, 0.00182596, -0.0160545, -0.0105637, 0.0116421, -0.0734284, -0.0473615, 0.0524998, -2.55962, -0.0414486, -0.0200428
[2024-04-18 18:38:20.458442] [0x00007f006e7d1f80] [info] [0x00010092] [60] 1713479899865911, 0.592058, -0.00266691, -0.00177206, 0.00194746, -0.0168135, -0.0110529, 0.0121844, -0.0753845, -0.0485533, 0.0538436, -2.56005, -0.0416537, -0.0201818
[2024-04-18 18:38:20.468226] [0x00007f006e7d1f80] [info] [0x00010092] [61] 1713479899865911, 0.60187, -0.00283554, -0.00188286, 0.00206963, -0.0175624, -0.0115349, 0.0127191, -0.0772697, -0.0496982, 0.0551358, -2.56046, -0.0418524, -0.0203169
[2024-04-18 18:38:20.478532] [0x00007f006e7d1f80] [info] [0x00010092] [62] 1713479899865911, 0.61193, -0.00301616, -0.00200144, 0.00220039, -0.0183495, -0.0120407, 0.0132804, -0.0792053, -0.0508698, 0.0564594, -2.56088, -0.0420575, -0.0204566
[2024-04-18 18:38:20.488211] [0x00007f006e7d1f80] [info] [0x00010092] [63] 1713479899865911, 0.621865, -0.00320241, -0.00212359, 0.00233514, -0.0191459, -0.0125519, 0.0138478, -0.0811191, -0.0520241, 0.057765, -2.5613, -0.0422614, -0.020596
[2024-04-18 18:38:20.498271] [0x00007f006e7d1f80] [info] [0x00010092] [64] 1713479899865911, 0.631887, -0.00339839, -0.00225202, 0.00247685, -0.0199685, -0.0130791, 0.0144333, -0.0830509, -0.0531852, 0.0590797, -2.56172, -0.0424685, -0.0207378
[2024-04-18 18:38:20.508253] [0x00007f006e7d1f80] [info] [0x00010092] [65] 1713479899865911, 0.641891, -0.00360235, -0.00238554, 0.00262422, -0.020809, -0.0136169, 0.0150309, -0.0849799, -0.0543405, 0.0603891, -2.56215, -0.0426767, -0.0208808
[2024-04-18 18:38:20.518236] [0x00007f006e7d1f80] [info] [0x00010092] [66] 1713479899865911, 0.651835, -0.0038135, -0.00252366, 0.00277669, -0.0216636, -0.014163, 0.0156379, -0.0868971, -0.0554845, 0.0616873, -2.56257, -0.042885, -0.0210243
[2024-04-18 18:38:20.528351] [0x00007f006e7d1f80] [info] [0x00010092] [67] 1713479899865911, 0.661865, -0.00403519, -0.00266852, 0.00293666, -0.0225449, -0.0147253, 0.0162632, -0.08883, -0.0566335, 0.0629927, -2.563, -0.0430967, -0.0211704
[2024-04-18 18:38:20.538277] [0x00007f006e7d1f80] [info] [0x00010092] [68] 1713479899865911, 0.671884, -0.00426556, -0.00281891, 0.00310279, -0.0234445, -0.0152984, 0.0169008, -0.0907593, -0.057776, 0.0642922, -2.56344, -0.0433095, -0.0213177
[2024-04-18 18:38:20.548257] [0x00007f006e7d1f80] [info] [0x00010092] [69] 1713479899865911, 0.681885, -0.0045046, -0.00297482, 0.00327505, -0.0243618, -0.0158819, 0.0175503, -0.0926827, -0.0589105, 0.0655843, -2.56387, -0.0435234, -0.0214662
[2024-04-18 18:38:20.558281] [0x00007f006e7d1f80] [info] [0x00010092] [70] 1713479899865911, 0.69189, -0.00475301, -0.00313669, 0.00345394, -0.0252987, -0.0164769, 0.0182129, -0.0946039, -0.0600391, 0.0668713, -2.56431, -0.043739, -0.0216162
[2024-04-18 18:38:20.568245] [0x00007f006e7d1f80] [info] [0x00010092] [71] 1713479899865911, 0.701877, -0.00501042, -0.00330426, 0.00363919, -0.0262531, -0.0170822, 0.0188871, -0.0965179, -0.061159, 0.0681498, -2.56475, -0.0439556, -0.0217674
[2024-04-18 18:38:20.578452] [0x00007f006e7d1f80] [info] [0x00010092] [72] 1713479899865911, 0.711882, -0.00527794, -0.00347824, 0.00383159, -0.0272283, -0.0176996, 0.0195753, -0.098431, -0.0622735, 0.069424, -2.56519, -0.0441741, -0.0219204
[2024-04-18 18:38:20.588201] [0x00007f006e7d1f80] [info] [0x00010092] [73] 1713479899865911, 0.721866, -0.00555473, -0.00365808, 0.00403051, -0.0282206, -0.0183269, 0.0202748, -0.100335, -0.063378, 0.0706885, -2.56563, -0.0443938, -0.0220745
[2024-04-18 18:38:20.598266] [0x00007f006e7d1f80] [info] [0x00010092] [74] 1713479899865911, 0.731875, -0.00584225, -0.0038447, 0.004237, -0.0292344, -0.0189667, 0.0209886, -0.102238, -0.064477, 0.0719484, -2.56607, -0.0446155, -0.0222306
[2024-04-18 18:38:20.608192] [0x00007f006e7d1f80] [info] [0x00010092] [75] 1713479899865911, 0.741859, -0.00613925, -0.0040373, 0.00445016, -0.0302646, -0.0196159, 0.0217132, -0.10413, -0.0655646, 0.0731971, -2.56652, -0.0448382, -0.0223877
[2024-04-18 18:38:20.618337] [0x00007f006e7d1f80] [info] [0x00010092] [76] 1713479899865911, 0.751887, -0.00644801, -0.00423732, 0.0046716, -0.0313183, -0.0202788, 0.0224534, -0.106023, -0.0666478, 0.0744426, -2.56697, -0.0450635, -0.0225472
[2024-04-18 18:38:20.628274] [0x00007f006e7d1f80] [info] [0x00010092] [77] 1713479899865911, 0.761887, -0.00676653, -0.00444346, 0.00489988, -0.0323879, -0.0209507, 0.023204, -0.107903, -0.0677185, 0.0756756, -2.56742, -0.0452898, -0.0227078
[2024-04-18 18:38:20.638268] [0x00007f006e7d1f80] [info] [0x00010092] [78] 1713479899865911, 0.771884, -0.00709573, -0.00465631, 0.00513565, -0.033476, -0.021633, 0.0239667, -0.109775, -0.0687789, 0.0768986, -2.56788, -0.0455176, -0.0228699
[2024-04-18 18:38:20.648190] [0x00007f006e7d1f80] [info] [0x00010092] [79] 1713479899865911, 0.78186, -0.00743518, -0.00487556, 0.00537859, -0.0345804, -0.0223243, 0.0247399, -0.111633, -0.0698267, 0.0781091, -2.56833, -0.0457466, -0.0230333
[2024-04-18 18:38:20.658281] [0x00007f006e7d1f80] [info] [0x00010092] [80] 1713479899865911, 0.791888, -0.0077876, -0.00510295, 0.00563063, -0.0357092, -0.0230298, 0.0255292, -0.113492, -0.070869, 0.0793153, -2.56879, -0.0459784, -0.0231993
[2024-04-18 18:38:20.668250] [0x00007f006e7d1f80] [info] [0x00010092] [81] 1713479899865911, 0.80188, -0.0081501, -0.00533662, 0.0058897, -0.0368524, -0.0237431, 0.0263277, -0.115333, -0.0718965, 0.0805063, -2.56925, -0.046211, -0.0233663
[2024-04-18 18:38:20.678501] [0x00007f006e7d1f80] [info] [0x00010092] [82] 1713479899865911, 0.811876, -0.00852427, -0.00557757, 0.00615691, -0.0380144, -0.0244668, 0.0271383, -0.117165, -0.0729127, 0.0816864, -2.56972, -0.0464454, -0.0235351
[2024-04-18 18:38:20.688238] [0x00007f006e7d1f80] [info] [0x00010092] [83] 1713479899865911, 0.821874, -0.00891022, -0.00582585, 0.00643234, -0.0391949, -0.0252008, 0.0279609, -0.118986, -0.0739171, 0.0828549, -2.57018, -0.0466816, -0.0237056
[2024-04-18 18:38:20.698453] [0x00007f006e7d1f80] [info] [0x00010092] [84] 1713479899865911, 0.83187, -0.00930799, -0.00608147, 0.006716, -0.0403934, -0.0259447, 0.0287949, -0.120794, -0.0749089, 0.084011, -2.57065, -0.0469194, -0.0238779
[2024-04-18 18:38:20.708411] [0x00007f006e7d1f80] [info] [0x00010092] [85] 1713479899865911, 0.842015, -0.00972403, -0.00634855, 0.00701246, -0.0416281, -0.0267097, 0.0296531, -0.122616, -0.0759024, 0.0851714, -2.57113, -0.0471625, -0.0240545
[2024-04-18 18:38:20.718303] [0x00007f006e7d1f80] [info] [0x00010092] [86] 1713479899865911, 0.851887, -0.010141, -0.00661594, 0.00730937, -0.0428472, -0.0274637, 0.0304994, -0.124377, -0.0768562, 0.0862877, -2.57159, -0.0474009, -0.0242281
[2024-04-18 18:38:20.728432] [0x00007f006e7d1f80] [info] [0x00010092] [87] 1713479899865911, 0.861882, -0.0105755, -0.00689429, 0.00761854, -0.0440992, -0.0282367, 0.0313675, -0.126146, -0.0778084, 0.0874045, -2.57207, -0.0476439, -0.0244058
[2024-04-18 18:38:20.738413] [0x00007f006e7d1f80] [info] [0x00010092] [88] 1713479899865911, 0.87188, -0.0110227, -0.00718051, 0.00793654, -0.0453692, -0.0290193, 0.0322469, -0.127901, -0.078747, 0.0885077, -2.57255, -0.0478888, -0.0245853
[2024-04-18 18:38:20.748068] [0x00007f006e7d1f80] [info] [0x00010092] [89] 1713479899865911, 0.881851, -0.0114815, -0.00747379, 0.00826249, -0.0466532, -0.0298091, 0.0331348, -0.129637, -0.079669, 0.0895939, -2.57302, -0.0481349, -0.0247662
[2024-04-18 18:38:20.757939] [0x00007f006e7d1f80] [info] [0x00010092] [90] 1713479899865911, 0.891785, -0.0119514, -0.00777386, 0.00859609, -0.0479495, -0.030605, 0.0340301, -0.131351, -0.0805731, 0.0906615, -2.5735, -0.0483818, -0.0249483
[2024-04-18 18:38:20.767861] [0x00007f006e7d1f80] [info] [0x00010092] [91] 1713479899865911, 0.901808, -0.0124386, -0.00808468, 0.00894174, -0.0492747, -0.0314171, 0.0349442, -0.133065, -0.0814703, 0.0917237, -2.57399, -0.0486328, -0.025134
[2024-04-18 18:38:20.777785] [0x00007f006e7d1f80] [info] [0x00010092] [92] 1713479899865911, 0.911763, -0.0129357, -0.00840148, 0.00929417, -0.0506077, -0.0322325, 0.0358625, -0.13475, -0.0823464, 0.0927634, -2.57448, -0.0488839, -0.0253204
[2024-04-18 18:38:20.787843] [0x00007f006e7d1f80] [info] [0x00010092] [93] 1713479899865911, 0.921785, -0.0134497, -0.00872867, 0.00965826, -0.0519666, -0.0330622, 0.0367973, -0.136431, -0.0832127, 0.0937943, -2.57497, -0.0491386, -0.02551
[2024-04-18 18:38:20.797840] [0x00007f006e7d1f80] [info] [0x00010092] [94] 1713479899865911, 0.931788, -0.0139764, -0.00906357, 0.0100311, -0.0533397, -0.0338988, 0.0377406, -0.138091, -0.0840615, 0.0948072, -2.57546, -0.0493948, -0.0257013
[2024-04-18 18:38:20.807743] [0x00007f006e7d1f80] [info] [0x00010092] [95] 1713479899865911, 0.941753, -0.0145148, -0.00940556, 0.0104119, -0.0547239, -0.0347406, 0.0386903, -0.139726, -0.0848909, 0.0957999, -2.57595, -0.0496518, -0.0258939
[2024-04-18 18:38:20.817841] [0x00007f006e7d1f80] [info] [0x00010092] [96] 1713479899865911, 0.951806, -0.015072, -0.00975911, 0.0108057, -0.0561368, -0.0355982, 0.0396584, -0.141358, -0.0857111, 0.0967845, -2.57645, -0.0499131, -0.0260903
[2024-04-18 18:38:20.827861] [0x00007f006e7d1f80] [info] [0x00010092] [97] 1713479899865911, 0.961807, -0.0156406, -0.0101194, 0.0112072, -0.0575586, -0.0364594, 0.0406311, -0.142963, -0.0865102, 0.0977468, -2.57695, -0.050175, -0.0262878
[2024-04-18 18:38:20.837799] [0x00007f006e7d1f80] [info] [0x00010092] [98] 1713479899865911, 0.971797, -0.0162227, -0.010488, 0.011618, -0.0589947, -0.0373275, 0.0416124, -0.144546, -0.0872913, 0.0986906, -2.57746, -0.0504386, -0.0264872
[2024-04-18 18:38:20.847778] [0x00007f006e7d1f80] [info] [0x00010092] [99] 1713479899865911, 0.981767, -0.0168181, -0.0108645, 0.0120378, -0.0604436, -0.0382016, 0.0426009, -0.146107, -0.0880536, 0.0996149, -2.57796, -0.0507037, -0.0266884
[2024-04-18 18:38:20.857843] [0x00007f006e7d1f80] [info] [0x00010092] [100] 1713479899865911, 0.991794, -0.0174316, -0.011252, 0.0124699, -0.0619164, -0.0390883, 0.0436044, -0.147656, -0.0888025, 0.100526, -2.57847, -0.0509724, -0.026893
[2024-04-18 18:38:20.867760] [0x00007f006e7d1f80] [info] [0x00010092] [101] 1713479899865911, 1.00176, -0.0180559, -0.0116459, 0.0129095, -0.0633954, -0.0399769, 0.0446105, -0.149175, -0.0895289, 0.101414, -2.57898, -0.0512414, -0.0270985
[2024-04-18 18:38:20.877804] [0x00007f006e7d1f80] [info] [0x00010092] [102] 1713479899865911, 1.01179, -0.0186997, -0.0120516, 0.0133623, -0.0649001, -0.040879, 0.0456327, -0.150684, -0.0902423, 0.102289, -2.5795, -0.0515144, -0.0273078
[2024-04-18 18:38:20.887818] [0x00007f006e7d1f80] [info] [0x00010092] [103] 1713479899865911, 1.0218, -0.0193568, -0.0124653, 0.0138241, -0.0664156, -0.0417856, 0.0466607, -0.152167, -0.0909352, 0.103143, -2.58001, -0.0517887, -0.0275189
[2024-04-18 18:38:20.897786] [0x00007f006e7d1f80] [info] [0x00010092] [104] 1713479899865911, 1.03178, -0.0200271, -0.0128868, 0.0142949, -0.0679413, -0.0426964, 0.0476942, -0.153624, -0.0916074, 0.103975, -2.58053, -0.0520644, -0.0277316
[2024-04-18 18:38:20.907802] [0x00007f006e7d1f80] [info] [0x00010092] [105] 1713479899865911, 1.04179, -0.0207147, -0.0133187, 0.0147774, -0.0694858, -0.0436164, 0.0487387, -0.155062, -0.0922626, 0.104789, -2.58105, -0.052343, -0.0279474
[2024-04-18 18:38:20.917868] [0x00007f006e7d1f80] [info] [0x00010092] [106] 1713479899865911, 1.0518, -0.0214182, -0.01376, 0.0152706, -0.0710454, -0.0445434, 0.0497919, -0.156478, -0.0928989, 0.105585, -2.58158, -0.0526239, -0.0281657
[2024-04-18 18:38:20.927846] [0x00007f006e7d1f80] [info] [0x00010092] [107] 1713479899865911, 1.0618, -0.0221367, -0.0142102, 0.0157739, -0.0726175, -0.0454756, 0.0508518, -0.15787, -0.0935151, 0.106359, -2.58211, -0.0529067, -0.0283862
[2024-04-18 18:38:20.937837] [0x00007f006e7d1f80] [info] [0x00010092] [108] 1713479899865911, 1.07177, -0.0228685, -0.0146682, 0.0162862, -0.0741983, -0.046411, 0.051916, -0.159234, -0.0941098, 0.107111, -2.58263, -0.0531908, -0.0286086
[2024-04-18 18:38:20.947865] [0x00007f006e7d1f80] [info] [0x00010092] [109] 1713479899865911, 1.0818, -0.0236207, -0.0151384, 0.0168123, -0.075802, -0.0473577, 0.0529939, -0.160582, -0.0946881, 0.107846, -2.58317, -0.0534789, -0.0288348
[2024-04-18 18:38:20.957815] [0x00007f006e7d1f80] [info] [0x00010092] [110] 1713479899865911, 1.09179, -0.0243856, -0.015616, 0.0173468, -0.077412, -0.0483059, 0.0540743, -0.161899, -0.0952438, 0.108558, -2.5837, -0.0537679, -0.0290626
[2024-04-18 18:38:20.967828] [0x00007f006e7d1f80] [info] [0x00010092] [111] 1713479899865911, 1.10178, -0.025167, -0.0161033, 0.0178924, -0.0790357, -0.04926, 0.0551622, -0.163192, -0.0957795, 0.109249, -2.58424, -0.0540594, -0.0292931
[2024-04-18 18:38:20.977884] [0x00007f006e7d1f80] [info] [0x00010092] [112] 1713479899865911, 1.11182, -0.0259687, -0.0166027, 0.0184518, -0.0806806, -0.0502243, 0.0562624, -0.164467, -0.0962973, 0.109922, -2.58479, -0.0543546, -0.0295275
[2024-04-18 18:38:20.987866] [0x00007f006e7d1f80] [info] [0x00010092] [113] 1713479899865911, 1.1218, -0.0267825, -0.017109, 0.019019, -0.0823289, -0.0511882, 0.0573631, -0.165709, -0.0967915, 0.110569, -2.58533, -0.0546506, -0.0297632
[2024-04-18 18:38:20.997800] [0x00007f006e7d1f80] [info] [0x00010092] [114] 1713479899865911, 1.13179, -0.027613, -0.017625, 0.0195974, -0.0839899, -0.0521572, 0.0584705, -0.166926, -0.0972652, 0.111195, -2.58588, -0.0549491, -0.0300019
[2024-04-18 18:38:21.007865] [0x00007f006e7d1f80] [info] [0x00010092] [115] 1713479899865911, 1.1418, -0.0284625, -0.0181522, 0.0201885, -0.0856677, -0.0531336, 0.0595872, -0.16812, -0.097719, 0.111801, -2.58643, -0.0552507, -0.0302439
[2024-04-18 18:38:21.017848] [0x00007f006e7d1f80] [info] [0x00010092] [116] 1713479899865911, 1.1518, -0.0293276, -0.0186885, 0.02079, -0.0873547, -0.054113, 0.0607082, -0.169286, -0.0981509, 0.112383, -2.58699, -0.0555544, -0.0304885
[2024-04-18 18:38:21.027832] [0x00007f006e7d1f80] [info] [0x00010092] [117] 1713479899865911, 1.16179, -0.030209, -0.0192341, 0.0214023, -0.0890521, -0.0550959, 0.061834, -0.170423, -0.0985612, 0.112943, -2.58754, -0.0558603, -0.0307359
[2024-04-18 18:38:21.037855] [0x00007f006e7d1f80] [info] [0x00010092] [118] 1713479899865911, 1.1718, -0.0311089, -0.0197905, 0.0220269, -0.0907634, -0.0560844, 0.0629672, -0.171536, -0.0989505, 0.113481, -2.5881, -0.0561692, -0.0309865
[2024-04-18 18:38:21.047798] [0x00007f006e7d1f80] [info] [0x00010092] [119] 1713479899865911, 1.18179, -0.0320237, -0.0203554, 0.0226612, -0.0924815, -0.0570741, 0.0641028, -0.172618, -0.0993171, 0.113996, -2.58866, -0.0564798, -0.0312396
[2024-04-18 18:38:21.057814] [0x00007f006e7d1f80] [info] [0x00010092] [120] 1713479899865911, 1.19179, -0.0329569, -0.020931, 0.0233078, -0.0942126, -0.0580688, 0.065245, -0.173674, -0.0996625, 0.114487, -2.58923, -0.0567934, -0.031496
[2024-04-18 18:38:21.067863] [0x00007f006e7d1f80] [info] [0x00010092] [121] 1713479899865911, 1.20181, -0.0339105, -0.0215183, 0.0239678, -0.0959594, -0.0590699, 0.0663954, -0.174705, -0.0999867, 0.114957, -2.5898, -0.0571106, -0.0317563
[2024-04-18 18:38:21.077856] [0x00007f006e7d1f80] [info] [0x00010092] [122] 1713479899865911, 1.2118, -0.0348778, -0.0221134, 0.0246369, -0.0977097, -0.0600703, 0.0675461, -0.175704, -0.100288, 0.115402, -2.59037, -0.0574291, -0.0320188
[2024-04-18 18:38:21.087842] [0x00007f006e7d1f80] [info] [0x00010092] [123] 1713479899865911, 1.2218, -0.0358635, -0.022719, 0.025318, -0.0994713, -0.0610744, 0.068702, -0.176675, -0.100566, 0.115824, -2.59095, -0.0577506, -0.0322848
[2024-04-18 18:38:21.097889] [0x00007f006e7d1f80] [info] [0x00010092] [124] 1713479899865911, 1.2318, -0.036867, -0.0233348, 0.0260107, -0.101243, -0.0620812, 0.0698621, -0.177616, -0.100823, 0.116222, -2.59153, -0.0580747, -0.032554
[2024-04-18 18:38:21.107800] [0x00007f006e7d1f80] [info] [0x00010092] [125] 1713479899865911, 1.24179, -0.0378868, -0.0239597, 0.0267141, -0.103021, -0.0630891, 0.0710245, -0.178528, -0.101056, 0.116596, -2.59211, -0.0584011, -0.0328262
[2024-04-18 18:38:21.117856] [0x00007f006e7d1f80] [info] [0x00010092] [126] 1713479899865911, 1.2518, -0.0389275, -0.0245966, 0.0274313, -0.104813, -0.0641023, 0.072194, -0.179412, -0.101268, 0.116947, -2.5927, -0.0587313, -0.0331025
[2024-04-18 18:38:21.127858] [0x00007f006e7d1f80] [info] [0x00010092] [127] 1713479899865911, 1.26181, -0.0399854, -0.0252431, 0.0281596, -0.106613, -0.0651166, 0.0733659, -0.180266, -0.101456, 0.117274, -2.59329, -0.0590639, -0.0333821
[2024-04-18 18:38:21.137846] [0x00007f006e7d1f80] [info] [0x00010092] [128] 1713479899865911, 1.2718, -0.0410599, -0.025899, 0.0288986, -0.108418, -0.0661314, 0.0745395, -0.181089, -0.101622, 0.117576, -2.59388, -0.059399, -0.0336649
[2024-04-18 18:38:21.147780] [0x00007f006e7d1f80] [info] [0x00010092] [129] 1713479899865911, 1.28179, -0.0421513, -0.0265643, 0.0296487, -0.11023, -0.0671468, 0.0757148, -0.18188, -0.101764, 0.117853, -2.59447, -0.0597365, -0.0339509
[2024-04-18 18:38:21.157822] [0x00007f006e7d1f80] [info] [0x00010092] [130] 1713479899865911, 1.2918, -0.0432644, -0.0272419, 0.0304129, -0.112056, -0.0681665, 0.0768964, -0.182643, -0.101883, 0.118106, -2.59507, -0.060078, -0.0342415
[2024-04-18 18:38:21.167821] [0x00007f006e7d1f80] [info] [0x00010092] [131] 1713479899865911, 1.3018, -0.0443941, -0.0279286, 0.0311878, -0.113886, -0.0691859, 0.0780786, -0.183375, -0.10198, 0.118335, -2.59568, -0.0604219, -0.0345353
[2024-04-18 18:38:21.177818] [0x00007f006e7d1f80] [info] [0x00010092] [132] 1713479899865911, 1.3118, -0.0455418, -0.0286254, 0.0319742, -0.115723, -0.0702058, 0.0792626, -0.184075, -0.102053, 0.118539, -2.59628, -0.0607686, -0.0348328
[2024-04-18 18:38:21.187816] [0x00007f006e7d1f80] [info] [0x00010092] [133] 1713479899865911, 1.3218, -0.0467089, -0.0293329, 0.0327732, -0.117568, -0.0712271, 0.0804495, -0.184744, -0.102102, 0.118718, -2.59689, -0.0611186, -0.0351344
[2024-04-18 18:38:21.197834] [0x00007f006e7d1f80] [info] [0x00010092] [134] 1713479899865911, 1.33177, -0.0478897, -0.0300478, 0.0335809, -0.119412, -0.0722448, 0.0816335, -0.185379, -0.102128, 0.118871, -2.5975, -0.0614703, -0.0354387
